Folder: Phonons-LiGa5O8/Data files updated

Note: README.md
# Phonons-LiGa5O8
data related to paper on LiGa5O8 phonons

File: Raman_intensities_for_averaging_over_all_angle.dat
#*** TO modes
# freq (cm1) abs Ipowder   abs I(XX)   abs I(XY)   abs I(XZ)   abs I(YY)   abs I(YZ)   abs I(ZZ)
0.00000e+00 6.48874e-12 3.13541e-14 2.86091e-15 2.86091e-15 3.13541e-14 2.86091e-15 3.13541e-14
7.80975e+00 6.87939e-12 3.33038e-14 3.00390e-15 3.00390e-15 3.33038e-14 3.00390e-15 3.33038e-14
1.56195e+01 7.31405e-12 3.54784e-14 3.16179e-15 3.16179e-15 3.54784e-14 3.16179e-15 3.54784e-14
2.34292e+01 7.80125e-12 3.79230e-14 3.33721e-15 3.33721e-15 3.79229e-14 3.33721e-15 3.79230e-14
3.12390e+01 8.35226e-12 4.06971e-14 3.53343e-15 3.53343e-15 4.06971e-14 3.53343e-15 4.06971e-14
3.90487e+01 8.98235e-12 4.38822e-14 3.75462e-15 3.75462e-15 4.38822e-14 3.75462e-15 4.38822e-14
4.68585e+01 9.71296e-12 4.75937e-14 4.00616e-15 4.00616e-15 4.75937e-14 4.00616e-15 4.75937e-14
5.46683e+01 1.05755e-11 5.20021e-14 4.29511e-15 4.29511e-15 5.20021e-14 4.29511e-15 5.20021e-14
6.24780e+01 1.16185e-11 5.73732e-14 4.63099e-15 4.63099e-15 5.73732e-14 4.63099e-15 5.73732e-14
7.02878e+01 1.29220e-11 6.41484e-14 5.02691e-15 5.02691e-15 6.41484e-14 5.02691e-15 6.41484e-14
7.80975e+01 1.46289e-11 7.31223e-14 5.50165e-15 5.50165e-15 7.31222e-14 5.50165e-15 7.31223e-14
8.59073e+01 1.70235e-11 8.58801e-14 6.08330e-15 6.08330e-15 8.58800e-14 6.08330e-15 8.58801e-14
9.37170e+01 2.07549e-11 1.06049e-13 6.81693e-15 6.81693e-15 1.06049e-13 6.81693e-15 1.06049e-13
1.01527e+02 2.76311e-11 1.43698e-13 7.78311e-15 7.78311e-15 1.43698e-13 7.78311e-15 1.43698e-13
1.09337e+02 4.44450e-11 2.36372e-13 9.15570e-15 9.15570e-15 2.36371e-13 9.15570e-15 2.36372e-13
1.17146e+02 1.11211e-10 6.02758e-13 1.14697e-14 1.14697e-14 6.02757e-13 1.14697e-14 6.02758e-13
1.24956e+02 2.46790e-10 1.38468e-12 1.75617e-14 1.75617e-14 1.38468e-12 1.75617e-14 1.38468e-12
1.32766e+02 1.32105e-10 8.16252e-13 2.24634e-14 2.24634e-14 8.16247e-13 2.24634e-14 8.16252e-13
1.40576e+02 7.36679e-11 4.24367e-13 2.69282e-14 2.69282e-14 4.24366e-13 2.69282e-14 4.24367e-13
1.48385e+02 1.05387e-10 6.10394e-13 6.02328e-14 6.02328e-14 6.10396e-13 6.02328e-14 6.10395e-13
1.56195e+02 6.19015e-11 2.99234e-13 5.11186e-14 5.11186e-14 2.99235e-13 5.11186e-14 2.99234e-13
1.64005e+02 5.48675e-11 2.33393e-13 5.48005e-14 5.48005e-14 2.33394e-13 5.48005e-14 2.33393e-13
1.71815e+02 6.94737e-11 2.35975e-13 1.04335e-13 1.04335e-13 2.35976e-13 1.04335e-13 2.35975e-13
1.79624e+02 1.00781e-10 2.50786e-13 2.09025e-13 2.09025e-13 2.50786e-13 2.09025e-13 2.50786e-13
1.87434e+02 1.82658e-10 2.89173e-13 4.90974e-13 4.90974e-13 2.89173e-13 4.90974e-13 2.89173e-13
1.95244e+02 4.06286e-10 3.49287e-13 1.29551e-12 1.29551e-12 3.49287e-13 1.29551e-12 3.49287e-13
2.03054e+02 1.76759e-10 4.40621e-13 3.61500e-13 3.61500e-13 4.40621e-13 3.61500e-13 4.40621e-13
2.10863e+02 1.42018e-10 5.86948e-13 1.28510e-13 1.28510e-13 5.86948e-13 1.28510e-13 5.86948e-13
2.18673e+02 1.73124e-10 8.61292e-13 6.35544e-14 6.35544e-14 8.61292e-13 6.35544e-14 8.61292e-13
2.26483e+02 2.61167e-10 1.41420e-12 3.95320e-14 3.95320e-14 1.41420e-12 3.95320e-14 1.41420e-12
2.34292e+02 3.79742e-10 2.00399e-12 2.83098e-14 2.83098e-14 2.00399e-12 2.83098e-14 2.00399e-12
2.42102e+02 7.43998e-10 3.93448e-12 2.26750e-14 2.26750e-14 3.93448e-12 2.26750e-14 3.93448e-12
2.49912e+02 2.12043e-09 1.12483e-11 1.93463e-14 1.93463e-14 1.12483e-11 1.93463e-14 1.12483e-11
2.57722e+02 8.41793e-09 4.47086e-11 1.71380e-14 1.71380e-14 4.47086e-11 1.71380e-14 4.47086e-11
2.65531e+02 3.21920e-09 1.71158e-11 1.65078e-14 1.65078e-14 1.71158e-11 1.65078e-14 1.71158e-11
2.73341e+02 9.72303e-10 5.16331e-12 1.75645e-14 1.75645e-14 5.16331e-12 1.75645e-14 5.16331e-12
2.81151e+02 4.58815e-10 2.43142e-12 2.35290e-14 2.35290e-14 2.43142e-12 2.35290e-14 2.43142e-12
2.88961e+02 2.87151e-10 1.50806e-12 4.32366e-14 4.32366e-14 1.50806e-12 4.32366e-14 1.50806e-12
2.96771e+02 2.25646e-10 1.24220e-12 3.77506e-14 3.77506e-14 1.24220e-12 3.77506e-14 1.24220e-12
3.04580e+02 3.01753e-10 1.81718e-12 8.76882e-14 8.76882e-14 1.81718e-12 8.76882e-14 1.81718e-12
3.12390e+02 2.29909e-10 1.40179e-12 4.99954e-14 4.99954e-14 1.40179e-12 4.99954e-14 1.40179e-12
3.20200e+02 3.20021e-10 2.12032e-12 4.64098e-14 4.64098e-14 2.12032e-12 4.64098e-14 2.12032e-12
3.28010e+02 2.75100e-10 1.69266e-12 9.56959e-14 9.56959e-14 1.69266e-12 9.56959e-14 1.69266e-12
3.35819e+02 1.56686e-10 9.07408e-13 3.82689e-14 3.82689e-14 9.07407e-13 3.82689e-14 9.07409e-13
3.43629e+02 1.61067e-10 9.51308e-13 2.43391e-14 2.43391e-14 9.51308e-13 2.43391e-14 9.51309e-13
3.51439e+02 2.80581e-10 1.82636e-12 2.18030e-14 2.18030e-14 1.82636e-12 2.18030e-14 1.82636e-12
3.59248e+02 2.23132e-10 1.32528e-12 2.23342e-14 2.23342e-14 1.32528e-12 2.23342e-14 1.32528e-12
3.67058e+02 2.37294e-10 1.31101e-12 2.47001e-14 2.47001e-14 1.31101e-12 2.47001e-14 1.31101e-12
3.74868e+02 3.62439e-10 2.02111e-12 2.99204e-14 2.99204e-14 2.02111e-12 2.99204e-14 2.02111e-12
3.82678e+02 6.12277e-10 3.36936e-12 4.40035e-14 4.40035e-14 3.36936e-12 4.40035e-14 3.36936e-12
3.90488e+02 1.26824e-09 6.67435e-12 1.06719e-13 1.06719e-13 6.67435e-12 1.06719e-13 6.67435e-12
3.98297e+02 4.50507e-09 2.39272e-11 1.01196e-13 1.01196e-13 2.39272e-11 1.01196e-13 2.39272e-11
4.06107e+02 7.63412e-09 4.10076e-11 5.91151e-14 5.91151e-14 4.10076e-11 5.91151e-14 4.10076e-11
4.13917e+02 1.87807e-09 1.00907e-11 6.39357e-14 6.39357e-14 1.00907e-11 6.39357e-14 1.00907e-11
4.21726e+02 7.26300e-10 3.79048e-12 9.46963e-14 9.46963e-14 3.79048e-12 9.46963e-14 3.79048e-12
4.29536e+02 4.23181e-10 1.98411e-12 2.11156e-13 2.11156e-13 1.98411e-12 2.11156e-13 1.98411e-12
4.37346e+02 4.15238e-10 1.26146e-12 6.87912e-13 6.87912e-13 1.26146e-12 6.87912e-13 1.26146e-12
4.45156e+02 2.50283e-10 9.27104e-13 2.97294e-13 2.97294e-13 9.27104e-13 2.97294e-13 9.27104e-13
4.52966e+02 2.14127e-10 7.87548e-13 2.57734e-13 2.57734e-13 7.87548e-13 2.57734e-13 7.87548e-13
4.60775e+02 2.06450e-10 8.10472e-13 2.11257e-13 2.11257e-13 8.10472e-13 2.11257e-13 8.10472e-13
4.68585e+02 2.62818e-10 1.13225e-12 1.95045e-13 1.95045e-13 1.13225e-12 1.95045e-13 1.13225e-12
4.76395e+02 5.83204e-10 2.67346e-12 3.09870e-13 3.09870e-13 2.67346e-12 3.09870e-13 2.67346e-12
4.84204e+02 1.87050e-09 8.86554e-12 7.70851e-13 7.70851e-13 8.86554e-12 7.70851e-13 8.86554e-12
4.92014e+02 1.35739e-09 3.03574e-12 3.01577e-12 3.01577e-12 3.03574e-12 3.01577e-12 3.03574e-12
4.99824e+02 6.33695e-10 1.62095e-12 1.37426e-12 1.37426e-12 1.62095e-12 1.37426e-12 1.62095e-12
5.07634e+02 2.52744e-10 7.51437e-13 4.60269e-13 4.60269e-13 7.51437e-13 4.60269e-13 7.51437e-13
5.15443e+02 1.71240e-10 5.29712e-13 2.84469e-13 2.84469e-13 5.29712e-13 2.84469e-13 5.29712e-13
5.23253e+02 2.20295e-10 8.02229e-13 2.69267e-13 2.69267e-13 8.02229e-13 2.69267e-13 8.02229e-13
5.31063e+02 1.97914e-10 5.07226e-13 3.92707e-13 3.92707e-13 5.07226e-13 3.92707e-13 5.07226e-13
5.38873e+02 3.25037e-10 2.59076e-13 1.05051e-12 1.05051e-12 2.59076e-13 1.05051e-12 2.59076e-13
5.46683e+02 5.59889e-10 1.87860e-13 1.99076e-12 1.99076e-12 1.87860e-13 1.99076e-12 1.87860e-13
5.54492e+02 2.16452e-10 1.53902e-13 7.13306e-13 7.13306e-13 1.53902e-13 7.13306e-13 1.53902e-13
5.62302e+02 2.34108e-10 1.34227e-13 7.94307e-13 7.94307e-13 1.34227e-13 7.94307e-13 1.34227e-13
5.70112e+02 5.36628e-10 1.23035e-13 1.94918e-12 1.94918e-12 1.23035e-13 1.94918e-12 1.23035e-13
5.77922e+02 2.37169e-10 1.20968e-13 8.17531e-13 8.17531e-13 1.20968e-13 8.17531e-13 1.20968e-13
5.85731e+02 1.90133e-10 1.43880e-13 6.29367e-13 6.29367e-13 1.43880e-13 6.29367e-13 1.43880e-13
5.93541e+02 2.72003e-10 2.33805e-13 8.95745e-13 8.95745e-13 2.33805e-13 8.95745e-13 2.33805e-13
6.01351e+02 5.47398e-10 2.75501e-13 1.91922e-12 1.91922e-12 2.75501e-13 1.91922e-12 2.75501e-13
6.09160e+02 1.84577e-09 1.81688e-13 6.88659e-12 6.88659e-12 1.81688e-13 6.88659e-12 1.81688e-13
6.16970e+02 3.14445e-09 1.11312e-13 1.18431e-11 1.18431e-11 1.11312e-13 1.18431e-11 1.11312e-13
6.24780e+02 7.67648e-10 9.64693e-14 2.84361e-12 2.84361e-12 9.64693e-14 2.84361e-12 9.64693e-14
6.32590e+02 3.00294e-10 9.37666e-14 1.07328e-12 1.07328e-12 9.37666e-14 1.07328e-12 9.37666e-14
6.40399e+02 1.65300e-10 9.66548e-14 5.59058e-13 5.59058e-13 9.66548e-14 5.59058e-13 9.66548e-14
6.48209e+02 1.12421e-10 1.04308e-13 3.52859e-13 3.52859e-13 1.04308e-13 3.52859e-13 1.04308e-13
6.56019e+02 9.23448e-11 1.17835e-13 2.66892e-13 2.66892e-13 1.17835e-13 2.66892e-13 1.17835e-13
6.63829e+02 1.06212e-10 1.40157e-13 3.03340e-13 3.03340e-13 1.40157e-13 3.03340e-13 1.40157e-13
6.71639e+02 9.54189e-11 1.77416e-13 2.35709e-13 2.35709e-13 1.77416e-13 2.35709e-13 1.77416e-13
6.79448e+02 1.00152e-10 2.43193e-13 2.06572e-13 2.06572e-13 2.43193e-13 2.06572e-13 2.43193e-13
6.87258e+02 1.70649e-10 3.71705e-13 3.81845e-13 3.81845e-13 3.71705e-13 3.81846e-13 3.71705e-13
6.95068e+02 3.86485e-10 6.69008e-13 9.87318e-13 9.87318e-13 6.69008e-13 9.87320e-13 6.69008e-13
7.02878e+02 3.79839e-10 1.59190e-12 3.02873e-13 3.02873e-13 1.59190e-12 3.02874e-13 1.59190e-12
7.10687e+02 1.19519e-09 6.16077e-12 1.29063e-13 1.29063e-13 6.16077e-12 1.29063e-13 6.16077e-12
7.18497e+02 1.43298e-09 7.49132e-12 7.97135e-14 7.97135e-14 7.49132e-12 7.97136e-14 7.49132e-12
7.26307e+02 3.61112e-10 1.83518e-12 5.80282e-14 5.80282e-14 1.83518e-12 5.80283e-14 1.83518e-12
7.34116e+02 1.49207e-10 7.28019e-13 4.58372e-14 4.58372e-14 7.28019e-13 4.58372e-14 7.28019e-13
7.41926e+02 8.29776e-11 3.87714e-13 3.79175e-14 3.79175e-14 3.87714e-13 3.79176e-14 3.87714e-13
7.49736e+02 5.42493e-11 2.43154e-13 3.22888e-14 3.22888e-14 2.43154e-13 3.22888e-14 2.43154e-13
7.57546e+02 3.91283e-11 1.68846e-13 2.80454e-14 2.80454e-14 1.68846e-13 2.80454e-14 1.68846e-13
7.65356e+02 3.01068e-11 1.25624e-13 2.47136e-14 2.47136e-14 1.25624e-13 2.47136e-14 1.25624e-13
7.73165e+02 2.42330e-11 9.82101e-14 2.20198e-14 2.20198e-14 9.82101e-14 2.20198e-14 9.82101e-14
7.80975e+02 2.01555e-11 7.96727e-14 1.97934e-14 1.97934e-14 7.96727e-14 1.97934e-14 7.96727e-14
7.88785e+02 1.71830e-11 6.65035e-14 1.79215e-14 1.79215e-14 6.65035e-14 1.79215e-14 6.65035e-14
7.96595e+02 1.49314e-11 5.67734e-14 1.63260e-14 1.63260e-14 5.67734e-14 1.63260e-14 5.67734e-14
8.00800e+02 1.39337e-11 5.25417e-14 1.55610e-14 1.55610e-14 5.25417e-14 1.55610e-14 5.25417e-14